# Wavenumber (cm^-1)	T
3.523280	0.79648
3.574342	0.80754
3.625404	0.81377
3.676466	0.87655
3.727528	0.91809
3.778590	0.90295
3.829652	0.89743
3.880714	0.86873
3.931776	0.85452
3.982838	0.83448
4.033900	0.85566
4.084962	0.88719
4.136024	0.87749
4.187086	0.86979
4.238148	0.88429
4.289210	0.89442
4.340272	0.89922
4.391334	0.89673
4.442396	0.88406
4.493458	0.89099
4.544520	0.89546
4.595582	0.89167
4.646644	0.89435
4.697706	0.89798
4.748768	0.89378
4.799830	0.8915
4.850892	0.89606
4.901954	0.90689
4.953016	0.92085
5.004078	0.91885
5.055140	0.9181
5.106202	0.92023
5.157264	0.91977
5.208326	0.92177
5.259388	0.92666
5.310450	0.93486
5.361512	0.93313
5.412574	0.93904
5.463636	0.9456
5.514698	0.94309
5.565760	0.94581
5.616822	0.94721
5.667884	0.95166
5.718946	0.95259
5.770008	0.95168
5.821070	0.96218
5.872132	0.9714
5.923194	0.97541
5.974256	0.97825
6.025318	0.97769
6.076380	0.97548
6.127442	0.97272
6.178504	0.97134
6.229566	0.97536
6.280628	0.98016
6.331690	0.98103
6.382752	0.97799
6.433814	0.97645
6.484876	0.97589
6.535938	0.97133
6.587000	0.96775
6.638062	0.96948
6.689124	0.97317
6.740186	0.9725
6.791248	0.96633
6.842310	0.96391
6.893372	0.96525
6.944434	0.96556
6.995496	0.96346
7.046558	0.96135
7.097620	0.96144
7.148682	0.96252
7.199744	0.96147
7.250806	0.9581
7.301868	0.95589
7.352930	0.95634
7.403992	0.95568
7.455054	0.95615
7.506116	0.95858
7.557178	0.95985
7.608240	0.96186
7.659302	0.96501
7.710364	0.96589
7.761426	0.96749
7.812488	0.97171
7.863550	0.97382
7.914612	0.97468
7.965674	0.97686
8.016736	0.97859
8.067798	0.98007
8.118860	0.98343
8.169922	0.98465
8.220984	0.98453
8.272046	0.98661
8.323108	0.98804
8.374170	0.98693
8.425232	0.98687
8.476294	0.98801
8.527356	0.98758
8.578418	0.98562
8.629480	0.98301
8.680542	0.97992
8.731604	0.97626
8.782666	0.97343
8.833728	0.97189
8.884790	0.97067
8.935852	0.96739
8.986914	0.96032
9.037976	0.95826
9.089038	0.95781
9.140100	0.95078
9.191162	0.94338
9.242224	0.93927
9.293286	0.93648
9.344348	0.9353
9.395410	0.92916
9.446472	0.92239
9.497534	0.92031
9.548596	0.91923
9.599658	0.91623
9.650720	0.91313
9.701782	0.91463
9.752844	0.91517
9.803906	0.91352
9.854968	0.91042
9.906030	0.91065
9.957092	0.91261
10.008154	0.91101
10.059216	0.91176
10.110278	0.91352
10.161340	0.91627
10.212402	0.91956
10.263464	0.92158
10.314526	0.92334
10.365588	0.9261
10.416650	0.93091
10.467712	0.93588
10.518774	0.93942
10.569836	0.94206
10.620898	0.94665
10.671960	0.95296
10.723022	0.95954
10.774084	0.96433
10.825146	0.96708
10.876208	0.96939
10.927270	0.97217
10.978332	0.97304
11.029394	0.9736
11.080456	0.97645
11.131518	0.97962
11.182580	0.98183
11.233642	0.9808
11.284704	0.97868
11.335766	0.97464
11.386828	0.96845
11.437890	0.96247
11.488952	0.95775
11.540014	0.95382
11.591076	0.94895
11.642138	0.94184
11.693200	0.93122
11.744262	0.91881
11.795324	0.90835
11.846386	0.89893
11.897448	0.88932
11.948510	0.88016
11.999572	0.87147
12.050634	0.86316
12.101696	0.85471
12.152758	0.8452
12.203820	0.83428
12.254882	0.82576
12.305944	0.81838
12.357006	0.81109
12.408068	0.80503
12.459130	0.8002
12.510192	0.79637
12.561254	0.79367
12.612316	0.79104
12.663378	0.78801
12.714440	0.78675
12.765502	0.78707
12.816564	0.78707
12.867626	0.78762
12.918688	0.78958
12.969750	0.7926
13.020812	0.79935
13.071874	0.80895
13.122936	0.81801
13.173998	0.82594
13.225060	0.83476
13.276122	0.84469
13.327184	0.85437
13.378246	0.86475
13.429308	0.87622
13.480370	0.8891
13.531432	0.90298
13.582494	0.91598
13.633556	0.92639
13.684618	0.93727
13.735680	0.94928
13.786742	0.95875
13.837804	0.96464
13.888866	0.96787
13.939928	0.96821
13.990990	0.96424
14.042052	0.95691
14.093114	0.94699
14.144176	0.93449
14.195238	0.91817
14.246300	0.89724
14.297362	0.87208
14.348424	0.84416
14.399486	0.81569
14.450548	0.78468
14.501610	0.75129
14.552672	0.71748
14.603734	0.68559
14.654796	0.65176
14.705858	0.61399
14.756920	0.57798
14.807982	0.54567
14.859044	0.51556
14.910106	0.48629
14.961168	0.45988
15.012230	0.43606
15.063292	0.41265
15.114354	0.38958
15.165416	0.36562
15.216478	0.34265
15.267540	0.32238
15.318602	0.3048
15.369664	0.29026
15.420726	0.27734
15.471788	0.26469
15.522850	0.25211
15.573912	0.24038
15.624974	0.22893
15.676036	0.21774
15.727098	0.20733
15.778160	0.19759
15.829222	0.18933
15.880284	0.1819
15.931346	0.17537
15.982408	0.17025
16.033470	0.16487
16.084532	0.16021
16.135594	0.15573
16.186656	0.14988
16.237718	0.14418
16.288780	0.13862
16.339842	0.13367
16.390904	0.12975
16.441966	0.12739
16.493028	0.12551
16.544090	0.12344
16.595152	0.12125
16.646214	0.11783
16.697276	0.11373
16.748338	0.11014
16.799400	0.10761
16.850462	0.10562
16.901524	0.10384
16.952586	0.10274
17.003648	0.10123
17.054710	0.09956
17.105772	0.0975
17.156834	0.09527
17.207896	0.09356
17.258958	0.09124
17.310020	0.08923
17.361082	0.08843
17.412144	0.08788
17.463206	0.08687
17.514268	0.08577
17.565330	0.0851
17.616392	0.08411
17.667454	0.08269
17.718516	0.08157
17.769578	0.08006
17.820640	0.07876
17.871702	0.07824
17.922764	0.07787
17.973826	0.07777
18.024888	0.07718
18.075950	0.0764
18.127012	0.0755
18.178074	0.07397
18.229136	0.07322
18.280198	0.07362
18.331260	0.07385
18.382322	0.07468
18.433384	0.0835
18.484446	0.10359
18.535508	0.12153
18.586570	0.12733
18.637632	0.11143
18.688694	0.08686
18.739756	0.07154
18.790820	0.06093
18.841882	0.05905
18.892944	0.05718
18.944006	0.05582
18.995068	0.05447
19.046130	0.05314
19.097192	0.052
19.148254	0.05051
19.199316	0.04924
19.250378	0.04813
19.301440	0.04708
19.352502	0.04611
19.403564	0.04509
19.454626	0.04416
19.505688	0.04306
19.556750	0.04185
19.607812	0.04093
19.658874	0.04005
19.709936	0.03905
19.760998	0.03836
19.812060	0.0379
19.863122	0.0372
19.914184	0.03643
19.965246	0.03553
20.016308	0.03486
20.067370	0.03443
20.118432	0.03366
20.169494	0.03282
20.220556	0.03205
20.271618	0.03172
20.322680	0.03143
20.373742	0.03085
20.424804	0.03022
20.475866	0.02952
20.526928	0.02898
20.577990	0.02846
20.629052	0.02832
20.680114	0.02873
20.731176	0.0288
20.782238	0.02834
20.833300	0.02808
20.884362	0.02833
20.935424	0.02811
20.986486	0.0278
21.037548	0.02726
21.088610	0.02662
21.139672	0.02612
21.190734	0.02545
21.241796	0.02534
21.292858	0.02525
21.343920	0.02509
21.394982	0.02504
21.446044	0.02447
21.497106	0.02386
21.548168	0.02325
21.599230	0.02294
21.650292	0.02301
21.701354	0.02273
21.752416	0.02287
21.803478	0.02322
21.854540	0.02267
21.905602	0.02194
21.956664	0.02187
22.007726	0.0216
22.058788	0.02112
22.109850	0.02111
22.160912	0.02135
22.211974	0.02127
22.263036	0.02139
22.314098	0.02152
22.365160	0.02157
22.416222	0.02178
22.467284	0.02162
22.518346	0.02154
22.569408	0.02184
22.620470	0.02224
22.671532	0.0222
22.722594	0.02234
22.773656	0.02327
22.824718	0.02379
22.875780	0.02402
22.926842	0.02414
22.977904	0.02383
23.028966	0.02434
23.080028	0.02517
23.131090	0.02579
23.182152	0.02646
23.233214	0.0265
23.284276	0.02708
23.335338	0.02769
23.386400	0.02808
23.437462	0.02844
23.488524	0.02907
23.539586	0.02996
23.590648	0.03034
23.641710	0.03102
23.692772	0.0321
23.743834	0.03327
23.794896	0.03415
23.845958	0.0348
23.897020	0.03561
23.948082	0.03678
23.999144	0.03834
24.050206	0.04007
24.101268	0.04167
24.152330	0.04333
24.203392	0.04508
24.254454	0.04676
24.305516	0.04882
24.356578	0.05118
24.407640	0.05343
24.458702	0.05568
24.509764	0.05884
24.560826	0.06223
24.611888	0.06552
24.662950	0.06998
24.714012	0.07438
24.765074	0.07856
24.816136	0.0844
24.867198	0.09147
24.918260	0.1003
24.969322	0.11485
25.020384	0.13992
25.071446	0.17306
25.122508	0.17824
25.173570	0.1688
25.224632	0.16607
25.275694	0.16995
25.326756	0.18112
25.377818	0.19584
25.428880	0.21243
25.479942	0.23189
25.531004	0.25373
25.582066	0.27733
25.633128	0.30339
25.684190	0.33254
25.735252	0.3641
25.786314	0.3983
25.837376	0.435
25.888438	0.47362
25.939500	0.51525
25.990562	0.55951
26.041624	0.6044
26.092686	0.64851
26.143748	0.69011
26.194810	0.72952
26.245872	0.76629
26.296934	0.79883
26.347996	0.82747
26.399058	0.85071
26.450120	0.86761
26.501182	0.87921
26.552244	0.88511
26.603306	0.88533
26.654368	0.8803
26.705430	0.87174
26.756492	0.86076
26.807554	0.8468
26.858616	0.83029
26.909678	0.81262
26.960740	0.795
27.011802	0.77691
27.062864	0.75892
27.113926	0.7421
27.164988	0.72648
27.216050	0.71222
27.267112	0.6987
27.318174	0.68629
27.369236	0.67509
27.420298	0.66541
27.471360	0.65736
27.522422	0.65042
27.573484	0.64469
27.624546	0.64038
27.675608	0.63835
27.726670	0.63725
27.777732	0.63673
27.828794	0.63771
27.879856	0.63937
27.930918	0.64236
27.981980	0.64602
28.033042	0.65015
28.084104	0.65666
28.135166	0.66539
28.186228	0.67432
28.237290	0.68336
28.288352	0.69321
28.339414	0.70409
28.390476	0.71628
28.441538	0.72803
28.492600	0.74074
28.543662	0.75498
28.594724	0.7696
28.645786	0.78339
28.696848	0.79714
28.747910	0.81203
28.798972	0.82605
28.850034	0.83881
28.901096	0.85107
28.952158	0.86257
29.003220	0.87307
29.054282	0.88241
29.105344	0.88997
29.156406	0.8962
29.207468	0.90058
29.258530	0.90413
29.309592	0.90609
29.360654	0.90584
29.411716	0.90481
29.462778	0.90203
29.513840	0.8973
29.564902	0.89234
29.615964	0.88695
29.667026	0.8805
29.718088	0.87406
29.769150	0.86702
29.820212	0.8583
29.871274	0.84997
29.922336	0.84341
29.973398	0.83745
30.024460	0.83077
30.075522	0.82511
30.126584	0.82097
30.177646	0.81724
30.228708	0.81402
30.279770	0.81193
30.330832	0.81078
30.381894	0.81139
30.432956	0.81259
30.484018	0.81209
30.535080	0.81235
30.586142	0.81464
30.637204	0.81512
30.688266	0.81435
30.739328	0.81289
30.790390	0.80673
30.841452	0.79523
30.892514	0.77779
30.943576	0.75387
30.994638	0.72446
31.045700	0.68975
31.096762	0.64981
31.147824	0.60442
31.198886	0.55408
31.249948	0.50183
31.301010	0.44844
31.352072	0.3971
31.403134	0.34935
31.454196	0.30333
31.505258	0.26239
31.556320	0.22582
31.607382	0.1912
31.658444	0.16125
31.709506	0.13645
31.754016	0.11896
32.006032	0.09679
32.258048	0.07977
32.510064	0.05129
32.762080	0.02964
33.014096	0.01762
33.266112	0.01059
33.518128	0.00623
33.770144	0.00389
34.022160	0.00247
34.274176	0.00143
34.526192	0.0009
34.778208	0.00065
35.030224	0.00001
35.282240	-0.00018
35.534256	-0.00011
35.786272	-0.00026
36.038288	-0.00033
36.290304	-0.00027
36.542320	-0.00052
36.794336	-0.001
37.046352	-0.00113
37.298368	-0.00078
37.550384	0.0002
37.802400	0.00062
38.054416	-0.00021
38.306432	-0.0006
38.558448	-0.00077
38.810464	-0.00083
39.062480	-0.00088
39.314496	-0.00081
39.566512	-0.00062
39.818528	-0.00069
40.070544	-0.0007
40.322560	-0.00066
40.574576	-0.00092
40.826592	-0.00087
41.078608	-0.00065
41.330624	-0.00055
41.582640	-0.00036
41.834656	-0.00019
42.086672	0.00024
42.338688	0.00081
42.590704	0.00085
42.842720	0.00089
43.094736	0.00103
43.346752	0.00129
43.598768	0.00156
43.850784	0.00177
44.102800	0.0019
44.354816	0.00168
44.606832	0.00228
44.858848	0.00313
45.110864	0.00318
45.362880	0.00296
45.614896	0.00267
45.866912	0.00255
46.118928	0.00241
46.370944	0.00208
46.622960	0.00199
46.874976	0.00199
47.126992	0.00232
47.379008	0.00315
47.631024	0.00389
47.883040	0.0051
48.135056	0.00737
48.387072	0.00929
48.639088	0.01034
48.891104	0.01305
49.143120	0.02003
49.395136	0.02545
49.647152	0.02807
49.899168	0.02323
50.151184	0.00992
50.403200	0.0029
50.655216	0.00132
50.907232	0.00041
51.159248	0.00015
51.411264	0.00007
51.663280	-0.00016
51.915296	-0.00023
52.167312	-0.00038
52.419328	-0.00042
52.671344	-0.00031
52.923360	-0.00065
53.175376	-0.00096
53.427392	-0.00102
53.679408	-0.00086
53.931424	-0.00065
54.183440	-0.00054
54.435456	-0.00048
54.687472	-0.00031
54.939488	-0.00009
55.191504	-0.00005
55.443520	-0.00036
55.695536	-0.00036
55.947552	0.00034
56.199568	0.00083
56.451584	0.00115
56.703600	0.00155
56.955616	0.00179
57.207632	0.00151
57.459648	0.00171
57.711664	0.00229
57.963680	0.00259
58.215696	0.00251
58.467712	0.00259
58.719728	0.00297
58.971744	0.00334
59.223760	0.00383
59.475776	0.00425
59.727792	0.00412
59.979808	0.00398
60.231824	0.00374
60.483840	0.00319
60.735856	0.00284
60.987872	0.00282
61.239888	0.00314
61.491904	0.00353
61.743920	0.00376
61.995936	0.00392
62.247952	0.00402
62.499968	0.00401
62.751984	0.00368
63.004000	0.00305
63.256016	0.00271
63.508032	0.00257
63.760048	0.0025
64.012064	0.00282
64.264080	0.00326
64.516096	0.00392
64.768112	0.00459
65.020128	0.00464
65.272144	0.00432
65.524160	0.00403
65.776176	0.00392
66.028192	0.00387
66.280208	0.00414
66.532224	0.00484
66.784240	0.0056
67.036256	0.00659
67.288272	0.00722
67.540288	0.00806
67.792304	0.00957
68.044320	0.01142
68.296336	0.01404
68.548352	0.01653
68.800368	0.01775
69.052384	0.0178
69.304400	0.01769
69.556416	0.01859
69.808432	0.02136
70.060448	0.0258
70.312464	0.03099
70.564480	0.03598
70.816496	0.03905
71.068512	0.03922
71.320528	0.03814
71.572544	0.03623
71.824560	0.0345
72.076576	0.03616
72.328592	0.04139
72.580608	0.04439
72.832624	0.04632
73.084640	0.04692
73.336656	0.04407
73.588672	0.03758
73.840688	0.02989
74.092704	0.0215
74.344720	0.01648
74.596736	0.01466
74.848752	0.01386
75.100768	0.01395
75.352784	0.0135
75.604800	0.01174
75.856816	0.01072
76.108832	0.0094
76.360848	0.00798
76.612864	0.00725
76.864880	0.00717
77.116896	0.00765
77.368912	0.00821
77.620928	0.00831
77.872944	0.00754
78.124960	0.0065
78.376976	0.00617
78.628992	0.00634
78.881008	0.00684
79.133024	0.00786
79.385040	0.00848
79.637056	0.00809
79.889072	0.00739
80.141088	0.00725
80.393104	0.00695
80.645120	0.00678
80.897136	0.00674
81.149152	0.00685
81.401168	0.00713
81.653184	0.00745
81.905200	0.00784
82.157216	0.00772
82.409232	0.00771
82.661248	0.00785
82.913264	0.0077
83.165280	0.00754
83.417296	0.00733
83.669312	0.00702
83.921328	0.00644
84.173344	0.00608
84.425360	0.00598
84.677376	0.00581
84.929392	0.00579
85.181408	0.00585
85.433424	0.00594
85.685440	0.00601
85.937456	0.00601
86.189472	0.00605
86.441488	0.00606
86.693504	0.00619
86.945520	0.00609
87.197536	0.00597
87.449552	0.00613
87.701568	0.00647
87.953584	0.00742
88.205600	0.00585
88.457616	0.0049
88.709632	0.00502
88.961648	0.00494
89.213664	0.00502
89.465680	0.00534
89.717696	0.00542
89.969712	0.00549
90.221728	0.00555
90.473744	0.00552
90.725760	0.00534
90.977776	0.00522
91.229792	0.00538
91.481808	0.0055
91.733824	0.00585
91.985840	0.00656
92.237856	0.00752
92.489872	0.00902
92.741888	0.00856
92.993904	0.0082
93.245920	0.00829
93.497936	0.00855
93.749952	0.0091
94.001968	0.01003
94.253984	0.01123
94.506000	0.0127
94.758016	0.01444
95.010032	0.01631
95.262048	0.01857
95.514064	0.02148
95.766080	0.02464
96.018096	0.02882
96.270112	0.03402
96.522128	0.03832
96.774144	0.04355
97.026160	0.04832
97.278176	0.05211
97.530192	0.05433
97.782208	0.05496
98.034224	0.05337
98.286240	0.04998
98.538256	0.04555
98.790272	0.04085
99.042288	0.03412
99.294304	0.02967
99.546320	0.02658
99.798336	0.02328
100.050352	0.02053
100.302368	0.0184
100.554384	0.01461
100.806400	0.01263
101.058416	0.01139
101.310432	0.01008
101.562448	0.00867
101.814464	0.00764
102.066480	0.00703
102.318496	0.00635
102.570512	0.00574
102.822528	0.00531
103.074544	0.00505
103.326560	0.00473
103.578576	0.0043
103.830592	0.00392
104.082608	0.00366
104.334624	0.00345
104.586640	0.00317
104.838656	0.00289
105.090672	0.00285
105.342688	0.00285
105.594704	0.00265
105.846720	0.0025
106.098736	0.00275
106.350752	0.00298
106.602768	0.00296
106.854784	0.00301
107.106800	0.00309
107.358816	0.00316
107.610832	0.00308
107.862848	0.00317
108.114864	0.00338
108.366880	0.00356
108.618896	0.00381
108.870912	0.00389
109.122928	0.00402
109.374944	0.00409
109.626960	0.0042
109.878976	0.00444
110.130992	0.00445
110.383008	0.00435
110.635024	0.00438
110.887040	0.00466
111.139056	0.00446
111.391072	0.00409
111.643088	0.00409
111.895104	0.00411
112.147120	0.00412
112.399136	0.00416
112.651152	0.00429
112.903168	0.00456
113.155184	0.00469
113.407200	0.00464
113.659216	0.0047
113.911232	0.00477
114.163248	0.00495
114.415264	0.00515
114.667280	0.00529
114.919296	0.00541
115.171312	0.00551
115.423328	0.00567
115.675344	0.00581
115.927360	0.00582
116.179376	0.006
116.431392	0.00619
116.683408	0.00627
116.935424	0.00647
117.187440	0.00677
117.439456	0.00708
117.691472	0.00737
117.943488	0.00821
118.195504	0.00878
118.447520	0.00919
118.699536	0.00984
118.951552	0.01046
119.203568	0.01134
119.455584	0.01259
119.707600	0.01398
119.959616	0.01646
120.211632	0.01903
120.463648	0.02044
120.715664	0.02257
120.967680	0.02501
121.219696	0.02859
121.471712	0.03259
121.723728	0.03717
121.975744	0.05064
122.227760	0.05549
122.479776	0.05746
122.731792	0.05837
122.983808	0.05713
123.235824	0.05443
123.487840	0.05028
123.739856	0.04521
123.991872	0.03991
124.243888	0.03464
124.495904	0.0299
124.747920	0.02561
124.999936	0.02171
125.251952	0.01818
125.503968	0.01518
125.755984	0.01276
126.008000	0.01078
126.260016	0.00901
126.512032	0.00752
126.764048	0.00582
127.016064	0.00319
127.268080	0.00342
127.520096	0.00366
127.772112	0.00333
128.024128	0.00316
128.276144	0.00305
128.528160	0.00277
128.780176	0.00248
129.032192	0.00234
129.284208	0.00266
129.536224	0.00274
129.788240	0.00241
130.040256	0.00249
130.292272	0.00263
130.544288	0.0027
130.796304	0.00291
131.048320	0.0029
131.300336	0.00306
131.552352	0.00353
131.804368	0.00335
132.056384	0.00328
132.308400	0.0035
132.560416	0.00278
132.812432	0.00235
133.064448	0.00339
133.316464	0.00364
133.568480	0.00357
133.820496	0.00398
134.072512	0.00409
134.324528	0.00457
134.576544	0.00495
134.828560	0.00523
135.080576	0.00581
135.332592	0.00612
135.584608	0.0062
135.836624	0.00608
136.088640	0.00631
136.340656	0.00645
136.592672	0.00643
136.844688	0.00679
137.096704	0.00697
137.348720	0.0072
137.600736	0.00718
137.852752	0.00713
138.104768	0.00767
138.356784	0.00782
138.608800	0.0079
138.860816	0.00918
139.112832	0.00792
139.364848	0.00681
139.616864	0.00692
139.868880	0.00657
140.120896	0.00598
140.372912	0.00627
140.624928	0.00637
140.876944	0.00606
141.128960	0.0066
141.380976	0.00711
141.632992	0.0073
141.885008	0.00695
142.137024	0.00664
142.389040	0.00726
142.641056	0.00756
142.893072	0.00748
143.145088	0.00722
143.397104	0.00716
143.649120	0.00783
143.901136	0.00819
144.153152	0.00877
144.405168	0.00993
144.657184	0.01113
144.909200	0.01237
145.161216	0.01385
145.413232	0.01563
145.665248	0.01757
145.917264	0.02024
146.169280	0.02339
146.421296	0.02749
146.673312	0.03188
146.925328	0.03473
147.177344	0.03765
147.429360	0.04062
147.681376	0.04269
147.933392	0.04311
148.185408	0.04192
148.437424	0.03874
148.689440	0.03483
148.941456	0.03031
149.193472	0.0253
149.445488	0.02406
149.697504	0.02209
149.949520	0.0195
150.201536	0.01626
150.453552	0.00959
150.705568	0.00765
150.957584	0.00751
151.209600	0.00394
151.461616	0.00304
151.713632	0.00406
151.965648	0.00441
152.217664	0.00407
152.469680	0.00423
152.721696	0.00338
152.973712	0.00197
153.225728	0.00361
153.477744	0.00366
153.729760	0.00311
153.981776	0.00326
154.233792	0.00284
154.485808	0.00261
154.737824	0.00206
154.989840	0.00262
155.241856	0.00517
155.493872	0.00612
155.745888	0.00179
155.997904	0.00507
156.249920	0.00931
156.501936	0.00294
156.753952	0.00003
157.005968	0.00083
157.257984	0.00089
157.510000	0.00423
157.762016	0.0051
158.014032	-0.0123
158.266048	0.0022
158.518064	0.01127
158.770080	0.00713
159.022096	0.00669
159.274112	0.00635
159.526128	0.00698
159.778144	0.00687
160.030160	0.00634
160.282176	0.00726
160.534192	0.00732
160.786208	0.00724
161.038224	0.00725
161.290240	0.00777
161.542256	0.00877
161.794272	0.00962
162.046288	0.01509
162.298304	0.0244
162.550320	0.02455
162.802336	0.01117
163.054352	0.00721
163.306368	0.0082
163.558384	0.00673
163.810400	0.00684
164.062416	0.00878
164.314432	0.01198
164.566448	0.0107
164.818464	0.0066
165.070480	0.00382
165.322496	0.00413
165.574512	0.00619
165.826528	0.0053
166.078544	0.00431
166.330560	0.00541
166.582576	0.00555
166.834592	0.0049
167.086608	0.0044
167.338624	0.00466
167.590640	0.00463
167.842656	0.00545
168.094672	0.00574
168.346688	0.00524
168.598704	0.00543
168.850720	0.00577
169.102736	0.00593
169.354752	0.00671
169.606768	0.00808
169.858784	0.0089
170.110800	0.00869
170.362816	0.0107
170.614832	0.01406
170.866848	0.0144
171.118864	0.01555
171.370880	0.01832
171.622896	0.02078
171.874912	0.02165
172.126928	0.02123
172.378944	0.02178
172.630960	0.02248
172.882976	0.02234
173.134992	0.02114
173.387008	0.01935
173.639024	0.01912
173.891040	0.01835
174.143056	0.01651
174.395072	0.01463
174.647088	0.01289
174.899104	0.01147
175.151120	0.01056
175.403136	0.00927
175.655152	0.0076
175.907168	0.00426
176.159184	0.00251
176.411200	0.0041
176.663216	0.00426
176.915232	0.0039
177.167248	0.00393
177.419264	0.00443
177.671280	0.00348
177.923296	0.0032
178.175312	0.00366
178.427328	0.0033
178.679344	0.00308
178.931360	0.00271
179.183376	0.00192
179.435392	0.00225
179.687408	0.00229
179.939424	0.00186
180.191440	0.0023
180.443456	0.00265
180.695472	0.00231
180.947488	0.0024
181.199504	0.00256
181.451520	0.00251
181.703536	0.00239
181.955552	0.00213
182.207568	0.00231
182.459584	0.00245
182.711600	0.00223
182.963616	0.00269
183.215632	0.00322
183.467648	0.00332
183.719664	0.00335
183.971680	0.00327
184.223696	0.00335
184.475712	0.00338
184.727728	0.00362
184.979744	0.00415
185.231760	0.00395
185.483776	0.00393
185.735792	0.00413
185.987808	0.00434
186.239824	0.00497
186.491840	0.00539
186.743856	0.00551
186.995872	0.00556
187.247888	0.00587
187.499904	0.00556
187.751920	0.00521
188.003936	0.00604
188.255952	0.00608
188.507968	0.00588
188.759984	0.0062
189.012000	0.00623
189.264016	0.00588
189.516032	0.00601
189.768048	0.00665
190.020064	0.00627
190.272080	0.00591
190.524096	0.00584
190.776112	0.00535
191.028128	0.00534
191.280144	0.0057
191.532160	0.00575
191.784176	0.00549
192.036192	0.00559
192.288208	0.00558
192.540224	0.00569
192.792240	0.00589
193.044256	0.00579
193.296272	0.00631
193.548288	0.00697
193.800304	0.00705
194.052320	0.00723
194.304336	0.00831
194.556352	0.00868
194.808368	0.00865
195.060384	0.00959
195.312400	0.01063
195.564416	0.01143
195.816432	0.01239
196.068448	0.01336
196.320464	0.01407
196.572480	0.01455
196.824496	0.01463
197.076512	0.01462
197.328528	0.01431
197.580544	0.01371
197.832560	0.01322
198.084576	0.01235
198.336592	0.01154
198.588608	0.01076
198.840624	0.0096
199.092640	0.00834
199.344656	0.00732
199.596672	0.00669
199.848688	0.00639
200.100704	0.00582
200.352720	0.00511
200.604736	0.005
200.856752	0.00497
201.108768	0.00475
201.360784	0.00434
201.612800	0.00416
201.864816	0.00426
202.116832	0.00477
202.368848	0.00547
202.620864	0.00532
202.872880	0.00268
203.124896	0.00157
203.376912	0.00189
203.628928	0.00219
203.880944	0.00217
204.132960	0.00243
204.384976	0.0029
204.636992	0.00274
204.889008	0.00232
205.141024	0.0022
205.393040	0.0024
205.645056	0.0023
205.897072	0.00246
206.149088	0.00251
206.401104	0.00214
206.653120	0.00204
206.905136	0.00209
207.157152	0.00262
207.409168	0.00273
207.661184	0.00251
207.913200	0.00263
208.165216	0.00293
208.417232	0.0024
208.669248	0.00233
208.921264	0.00278
209.173280	0.00263
209.425296	0.00297
209.677312	0.00318
209.929328	0.00304
210.181344	0.00365
210.433360	0.00396
210.685376	0.00398
210.937392	0.00375
211.189408	0.00362
211.441424	0.00381
211.693440	0.00396
211.945456	0.00453
212.197472	0.00509
212.449488	0.0048
212.701504	0.00471
212.953520	0.00485
213.205536	0.0046
213.457552	0.00496
213.709568	0.00526
213.961584	0.00548
214.213600	0.00578
214.465616	0.00597
214.717632	0.00588
214.969648	0.00564
215.221664	0.00594
215.473680	0.00616
215.725696	0.00627
215.977712	0.0065
216.229728	0.00669
216.481744	0.00662
216.733760	0.00656
216.985776	0.00743
217.237792	0.00772
217.489808	0.0072
217.741824	0.00669
217.993840	0.00688
218.245856	0.00754
218.497872	0.00737
218.749888	0.00747
219.001904	0.00773
219.253920	0.00794
219.505936	0.00822
219.757952	0.00819
220.009968	0.00887
220.261984	0.00876
220.514000	0.00818
220.766016	0.0086
221.018032	0.00887
221.270048	0.00857
221.522064	0.00853
221.774080	0.00893
222.026096	0.00845
222.278112	0.00776
222.530128	0.00742
222.782144	0.00685
223.034160	0.00632
223.286176	0.00601
223.538192	0.00552
223.790208	0.00579
224.042224	0.00565
224.294240	0.00508
224.546256	0.00461
224.798272	0.00415
225.050288	0.0044
225.302304	0.00474
225.554320	0.00507
225.806336	0.0056
226.058352	0.00432
226.310368	0.00291
226.562384	0.00372
226.814400	0.00409
227.066416	0.00419
227.318432	0.00449
227.570448	0.005
227.822464	0.00228
228.074480	0.00218
228.326496	0.00284
228.578512	0.00276
228.830528	0.00312
229.082544	0.00314
229.334560	0.00277
229.586576	0.00287
229.838592	0.00296
230.090608	0.00244
230.342624	0.00229
230.594640	0.00273
230.846656	0.00259
231.098672	0.00223
231.350688	0.00206
231.602704	0.00195
231.854720	0.00198
232.106736	0.00229
232.358752	0.00249
232.610768	0.00228
232.862784	0.00222
233.114800	0.00257
233.366816	0.00313
233.618832	0.00332
233.870848	0.00326
234.122864	0.00276
234.374880	0.00239
234.626896	0.00266
234.878912	0.00303
235.130928	0.00315
235.382944	0.00282
235.634960	0.00271
235.886976	0.00349
236.138992	0.00395
236.391008	0.00397
236.643024	0.00391
236.895040	0.00406
237.147056	0.00449
237.399072	0.00477
237.651088	0.00445
237.903104	0.00403
238.155120	0.00449
238.407136	0.00462
238.659152	0.0047
238.911168	0.00526
239.163184	0.00517
239.415200	0.00529
239.667216	0.00577
239.919232	0.00588
240.171248	0.00598
240.423264	0.00527
240.675280	0.00537
240.927296	0.00648
241.179312	0.0065
241.431328	0.00623
241.683344	0.00637
241.935360	0.00633
242.187376	0.00638
242.439392	0.00625
242.691408	0.00586
242.943424	0.00569
243.195440	0.00552
243.447456	0.0059
243.699472	0.00657
243.951488	0.00651
244.203504	0.00595
244.455520	0.00552
244.707536	0.00564
244.959552	0.00531
245.211568	0.00476
245.463584	0.00457
245.715600	0.00437
245.967616	0.00458
246.219632	0.00437
246.471648	0.00396
246.723664	0.00404
246.975680	0.00394
247.227696	0.00333
247.479712	0.00353
247.731728	0.00385
247.983744	0.0018
248.235760	0.00239
248.487776	0.00305
248.739792	0.00267
248.991808	0.00334
249.243824	0.00356
249.495840	0.0027
249.747856	0.00378
249.999872	0.00471
250.251888	0.00367
250.503904	0.003
250.755920	0.00338
251.007936	0.00368
251.259952	0.00347
251.511968	0.0034
251.763984	0.0032
252.016000	0.00294
252.268016	0.00313
252.520032	0.00345
252.772048	0.00375
253.024064	0.00443
253.276080	0.00445
253.528096	0.00433
253.780112	0.00587
254.032128	0.00433
254.284144	0.0024
254.536160	0.00247
254.788176	0.00258
255.040192	0.00291
255.292208	0.00302
255.544224	0.0025
255.796240	0.00225
256.048256	0.00217
256.300272	0.002
256.552288	0.00174
256.804304	0.00221
257.056320	0.0024
257.308336	0.00207
257.560352	0.00219
257.812368	0.00265
258.064384	0.00237
258.316400	0.00187
258.568416	0.00177
258.820432	0.00205
259.072448	0.00262
259.324464	0.00223
259.576480	0.00243
259.828496	0.00228
260.080512	0.0017
260.332528	0.00277
260.584544	0.00304
260.836560	0.00277
261.088576	0.00274
261.340592	0.00319
261.592608	0.00343
261.844624	0.00272
262.096640	0.00331
262.348656	0.00376
262.600672	0.0043
262.852688	0.00511
263.104704	0.00505
263.356720	0.00521
263.608736	0.0051
263.860752	0.0045
264.112768	0.00492
264.364784	0.00588
264.616800	0.00552
264.868816	0.00542
265.120832	0.00592
265.372848	0.00573
265.624864	0.00616
265.876880	0.00695
266.128896	0.00618
266.380912	0.0063
266.632928	0.00643
266.884944	0.00648
267.136960	0.00762
267.388976	0.00848
267.640992	0.00887
267.893008	0.00791
268.145024	0.00742
268.397040	0.00822
268.649056	0.0084
268.901072	0.00801
269.153088	0.00832
269.405104	0.00874
269.657120	0.008
269.909136	0.00737
270.161152	0.00769
270.413168	0.00745
270.665184	0.00686
270.917200	0.006
271.169216	0.0058
271.421232	0.00582
271.673248	0.00491
271.925264	0.00424
272.177280	0.0049
272.429296	0.00509
272.681312	0.00455
272.933328	0.00537
273.185344	0.00476
273.437360	0.00303
273.689376	0.00302
273.941392	0.00346
274.193408	0.00369
274.445424	0.00363
274.697440	0.00344
274.949456	0.00342
275.201472	0.00308
275.453488	0.00382
275.705504	0.00409
275.957520	0.00384
276.209536	0.00404
276.461552	0.00358
276.713568	0.00339
276.965584	0.00379
277.217600	0.00439
277.469616	0.00449
277.721632	0.00517
277.973648	0.00626
278.225664	0.00569
278.477680	0.00283
278.729696	0.0035
278.981712	0.00503
279.233728	0.00617
279.485744	0.00498
279.737760	0.00256
279.989776	0.0025
280.241792	0.00382
280.493808	0.00389
280.745824	0.00435
280.997840	0.00448
281.249856	0.00462
281.501872	0.00494
281.753888	0.00395
282.005904	0.00306
282.257920	0.00129
282.509936	0.00179
282.761952	0.00324
283.013968	0.00367
283.265984	0.00285
283.518000	0.00147
283.770016	0.00158
284.022032	0.00273
284.274048	0.0028
284.526064	0.00404
284.778080	0.00464
285.030096	0.00261
285.282112	0.0021
285.534128	0.00307
285.786144	0.00301
286.038160	0.00465
286.290176	0.00635
286.542192	0.00515
286.794208	0.00391
287.046224	0.00511
287.298240	0.00612
287.550256	0.00536
287.802272	0.00445
288.054288	0.00421
288.306304	0.00513
288.558320	0.0044
288.810336	0.00372
289.062352	0.00556
289.314368	0.00335
289.566384	0.00305
289.818400	0.00686
290.070416	0.00735
290.322432	0.00931
290.574448	0.00932
290.826464	0.00859
291.078480	0.00936
291.330496	0.00846
291.582512	0.00942
291.834528	0.01097
292.086544	0.01033
292.338560	0.01063
292.590576	0.01082
292.842592	0.01094
293.094608	0.01093
293.346624	0.00976
293.598640	0.0095
293.850656	0.01005
294.102672	0.00994
294.354688	0.00826
294.606704	0.00685
294.858720	0.00752
295.110736	0.00876
295.362752	0.00909
295.614768	0.0086
295.866784	0.00758
296.118800	0.00724
296.370816	0.00721
296.622832	0.00794
296.874848	0.00709
297.126864	0.00627
297.378880	0.00596
297.630896	0.00475
297.882912	0.00626
298.134928	0.00512
298.386944	0.00386
298.638960	0.00325
298.890976	0.00086
299.142992	0.0021
299.395008	0.00426
299.647024	0.00323
299.899040	0.00416
300.151056	0.00504
